"success","timeout","failed_images","failed_audio","failed_video","trial_type","trial_index","time_elapsed","internal_node_id","image_group","prolific_id","rt","response","stimulus","image_name","word_count"
"true","false","[]","[]","[]","preload","0","5845","0.0-0.0","4","6a257f5122a888df928ab6e2","","","","",""
"","","","","","survey-text","1","12010","0.0-1.0","4","6a257f5122a888df928ab6e2","6146","{""Q0"":""6a257f5122a888df928ab6e2""}","","",""
"","","","","","html-button-response","2","35169","0.0-2.0","4","6a257f5122a888df928ab6e2","23157","0","
        <div style=""max-width:900px; text-align:left; margin:auto;"">
          <p>
            You are participating in a study about language and related cognitive abilities
            being conducted by Professor Evelina Fedorenko from the Department of Brain and
            Cognitive Sciences at MIT. If you have questions or concerns, you can contact
            Professor Fedorenko by email (evelina9@mit.edu).
          </p>

          <p>
            Your participation in this research is voluntary. You may decline to answer
            any or all of the following questions. You may decline further participation,
            at any time, without adverse consequences.
          </p>

          <p>
            Your anonymity is assured; the researchers who have requested your participation
            will not receive any personal information about you.
          </p>

          <p>
            The only restriction to being paid
            is achieving the accuracy requirements as detailed in the task instructions
            (to block ""bots"" who answer randomly).
          </p>

          <p><strong>I agree to take part in this study.</strong></p>
        </div>
      ","",""
"","","","","","html-button-response","3","82362","0.0-3.0","4","6a257f5122a888df928ab6e2","47191","0","
        <h2 style=""text-align:center;"">
        Instructions: Sentence Production Experiment
        </h2>
        <div style=""max-width:700px; text-align:left; margin:auto;"">

          <p>
            We ask that you try to use complete sentences with a subject and a verb.
            For example, ""A dog is sitting on a porch."" instead of ""a dog on a porch"",
            or ""The children are playing happily."" instead of ""Happy children"". Please use at least 5 words.
          </p>

          <div style=""text-align:center; margin:20px 0;"">
            <img src=""stimuli/instructions_example.png"" width=""600"">
          </div>

          <p>
            Please make sure you understand these instructions and are able to follow
            them in every question. Do not complete this survey if you do not understand.
          </p>

          <p>
            You will not get paid if your answers do not follow the instructions
            (for example, if you write things unrelated to the image or write the same
            thing such as ""a nice picture"" for each image).
          </p>

          <p>
            Please click ""next"" when you are ready to begin.
          </p>

        </div>
      ","",""
"","","","","","html-button-response","4","124510","0.0-4.0-0.0","4","6a257f5122a888df928ab6e2","","A man sawing a piece of wood outside.","","flickr30_image_3003.jpg","8"
"","","","","","html-button-response","5","151792","0.0-4.0-0.1","4","6a257f5122a888df928ab6e2","","A woman in a red hat selling produce on the street.","","flickr30_image_2858.jpg","11"
"","","","","","html-button-response","6","192548","0.0-4.0-0.2","4","6a257f5122a888df928ab6e2","","Indian people outside walking up steps getting their picture taken.","","flickr30_image_601.jpg","10"
"","","","","","html-button-response","7","209279","0.0-4.0-0.3","4","6a257f5122a888df928ab6e2","","Kids in a class room dancing.","","flickr30_image_3721.jpg","6"
"","","","","","html-button-response","8","235847","0.0-4.0-0.4","4","6a257f5122a888df928ab6e2","","A female child cutting a piece of coloring paper.","","flickr30_image_837.jpg","9"
"","","","","","html-button-response","9","270236","0.0-4.0-0.5","4","6a257f5122a888df928ab6e2","","A person sitting outside on steps wearing a white triangular hat.","","flickr30_image_3614.jpg","11"
"","","","","","html-button-response","10","315370","0.0-4.0-0.6","4","6a257f5122a888df928ab6e2","","A female child carrying a bag and another piece of white cloth through some greenery.","","flickr30_image_451.jpg","15"
"","","","","","html-button-response","11","410386","0.0-4.0-0.7","4","6a257f5122a888df928ab6e2","","A woman sitting down surrounded by seafood holding a drink.","","flickr30_image_840.jpg","10"
"","","","","","html-button-response","12","476990","0.0-4.0-0.8","4","6a257f5122a888df928ab6e2","","A woman in purple sitting outside surrounded by animals with antlers. ","","flickr30_image_3256.jpg","11"
"","","","","","html-button-response","13","534652","0.0-4.0-0.9","4","6a257f5122a888df928ab6e2","","A man and boy outside selling and or buying produce from a cart.","","flickr30_image_3757.jpg","13"
"","","","","","html-button-response","14","581376","0.0-4.0-0.10","4","6a257f5122a888df928ab6e2","","A girl outside in the snow wearing skies holding a bird.","","flickr30_image_3145.jpg","11"
"","","","","","html-button-response","15","649532","0.0-4.0-0.11","4","6a257f5122a888df928ab6e2","","A woman siting outside next to a weight on a deck weaving fabric with a young girl standing behind her. ","","flickr30_image_3728.jpg","20"
"","","","","","html-button-response","16","684522","0.0-4.0-0.12","4","6a257f5122a888df928ab6e2","","5 tan boys posing outside in what looks like a military setting for a picture.","","flickr30_image_2973.jpg","15"
"","","","","","html-button-response","17","745264","0.0-4.0-0.13","4","6a257f5122a888df928ab6e2","","A man helping a little girl outside stand on a adult bike that is too large for her.","","flickr30_image_3130.jpg","18"
"","","","","","html-button-response","18","792372","0.0-4.0-0.14","4","6a257f5122a888df928ab6e2","","A group of men on a beach surrounding a basket of fish.","","flickr30_image_3938.jpg","12"
"","","","","","html-button-response","19","864871","0.0-4.0-0.15","4","6a257f5122a888df928ab6e2","","A horse or donkey being weighed down and lifted up in the air by the cargo it was pulling behind it.","","flickr30_image_3171.jpg","21"
"","","","","","html-button-response","20","924561","0.0-4.0-0.16","4","6a257f5122a888df928ab6e2","","A man walking around in traffic going up to a blue camry giving or taking a red item through the car window.","","flickr30_image_3268.jpg","22"
"","","","","","html-button-response","21","955959","0.0-4.0-0.17","4","6a257f5122a888df928ab6e2","","A man outside in a body of water on a small row boat rowing.","","flickr30_image_3772.jpg","14"
"","","","","","html-button-response","22","1104430","0.0-4.0-0.18","4","6a257f5122a888df928ab6e2","","A woman in a stripped shirt sitting smoking a cigarette, a woman sitting next to her in an orange shirt shaking a persons hand who is out of frame and a man sitting in a blue work truck parked behind the women.","","flickr30_image_3380.jpg","42"
"","","","","","html-button-response","23","1134635","0.0-4.0-0.19","4","6a257f5122a888df928ab6e2","","A man sitting outside shining someone's shoe.","","flickr30_image_676.jpg","7"
"","","","","","html-button-response","24","1153281","0.0-4.0-0.20","4","6a257f5122a888df928ab6e2","","A woman sitting outside reading a book.","","flickr30_image_951.jpg","7"
"","","","","","html-button-response","25","1198802","0.0-4.0-0.21","4","6a257f5122a888df928ab6e2","","A male child sitting inside a building at a table coloring on a piece of paper.","","flickr30_image_3169.jpg","16"
"","","","","","html-button-response","26","1226962","0.0-4.0-0.22","4","6a257f5122a888df928ab6e2","","A man inside building the inside of a boat.","","flickr30_image_2919.jpg","9"
"","","","","","html-button-response","27","1275329","0.0-4.0-0.23","4","6a257f5122a888df928ab6e2","","A male child standing outside of a Chinese establishment hold a blue umbrella.","","flickr30_image_355.jpg","13"
"","","","","","html-button-response","28","1350396","0.0-4.0-0.24","4","6a257f5122a888df928ab6e2","","A male sitting outside on a stool behind a few boxes giving two thumbs up.","","flickr30_image_849.jpg","15"
"","","","","","html-button-response","29","1409119","0.0-4.0-0.25","4","6a257f5122a888df928ab6e2","","A boy outside getting read to hit a small red ball with a bat, while a car stands behind him.","","flickr30_image_5.jpg","20"
"","","","","","html-button-response","30","1457907","0.0-4.0-0.26","4","6a257f5122a888df928ab6e2","","A man laying down outside with sunglasses on the top of his head taking a nap.","","flickr30_image_3899.jpg","16"
"","","","","","html-button-response","31","1516698","0.0-4.0-0.27","4","6a257f5122a888df928ab6e2","","A girl outside in the rain at a busy Chinese market holding a red umbrella. ","","flickr30_image_3349.jpg","15"
"","","","","","html-button-response","32","1634157","0.0-4.0-0.28","4","6a257f5122a888df928ab6e2","","7 kids in orange clothes spilling water over their heads out of cups, while looking towards three boats with a people on them.","","flickr30_image_2971.jpg","23"
"","","","","","html-button-response","33","1706670","0.0-4.0-0.29","4","6a257f5122a888df928ab6e2","","A man on a bike with a blue hat in the wet street holding something in his left hand while going towards traffic.","","flickr30_image_3430.jpg","23"
"","","","","","html-button-response","34","1758157","0.0-4.0-0.30","4","6a257f5122a888df928ab6e2","","A group of people at a gathering in bare feet getting food from a buffet line.","","flickr30_image_3222.jpg","16"
"","","","","","html-button-response","35","1820738","0.0-4.0-0.31","4","6a257f5122a888df928ab6e2","","A little boy is sitting in a white chair braiding a little girls hair who is sitting on the food on top of a tan mat.","","flickr30_image_3149.jpg","26"
"","","","","","html-button-response","36","1864653","0.0-4.0-0.32","4","6a257f5122a888df928ab6e2","","A newly married couple jumping while standing on the great wall of china.","","flickr30_image_2918.jpg","13"
"","","","","","html-button-response","37","1901602","0.0-4.0-0.33","4","6a257f5122a888df928ab6e2","","A child is outside alone sitting in the dirt with their arms crossed on their knees.","","flickr30_image_476.jpg","16"
"","","","","","html-button-response","38","1964991","0.0-4.0-0.34","4","6a257f5122a888df928ab6e2","","A man is sitting outside behind a large pile of seeds on a wooden pallet.","","flickr30_image_3903.jpg","15"
"","","","","","html-button-response","39","2048435","0.0-4.0-0.35","4","6a257f5122a888df928ab6e2","","A man is walking outside in the rain carrying a child and an umbrella, a woman is outside walking in the rain next to the man also holding an umbrella.","","flickr30_image_3289.jpg","30"
"","","","","","html-button-response","40","2114506","0.0-4.0-0.36","4","6a257f5122a888df928ab6e2","","A group of children are outside in the dirt performing some type of sporting event while adults stand on the side lines and watch and record them.","","flickr30_image_3220.jpg","27"
"","","","","","html-button-response","41","2183928","0.0-4.0-0.37","4","6a257f5122a888df928ab6e2","","A old woman is outside washing a piece of clothing in a wide shallow bucket outside.","","flickr30_image_3087.jpg","16"
"","","","","","html-button-response","42","2224112","0.0-4.0-0.38","4","6a257f5122a888df928ab6e2","","Two teenage girls are looking into microscopes. ","","flickr30_image_2869.jpg","7"
"","","","","","html-button-response","43","2275583","0.0-4.0-0.39","4","6a257f5122a888df928ab6e2","","A woman is sitting outside in my dirt next to two grey buckets full of things.","","flickr30_image_3013.jpg","16"
"","","","","","html-button-response","44","2374052","0.0-4.0-0.40","4","6a257f5122a888df928ab6e2","","A group of people are outside sweeping flood waters into storm drains while there are cars stopped in the streets with other people observing.","","flickr30_image_2935.jpg","24"
"","","","","","html-button-response","45","2422053","0.0-4.0-0.41","4","6a257f5122a888df928ab6e2","","Two boys are squatting down holding two hand fulls of marbles each.","","flickr30_image_3789.jpg","12"
"","","","","","html-button-response","46","2466805","0.0-4.0-0.42","4","6a257f5122a888df928ab6e2","","A woman is inside a palace cleaning large pillars while a man stands in the background.","","flickr30_image_3342.jpg","16"
"","","","","","html-button-response","47","2523150","0.0-4.0-0.43","4","6a257f5122a888df928ab6e2","","A baby and a toddle are laying down both wearing coral shirts facing away from the camera.","","flickr30_image_3508.jpg","17"
"","","","","","html-button-response","48","2617967","0.0-4.0-0.44","4","6a257f5122a888df928ab6e2","","Three kids are standing outside. Two are standing on a fence one higher up than the other, the third child is standing on the ground.","","flickr30_image_3611.jpg","25"
"","","","","","html-button-response","49","2646725","0.0-4.0-0.45","4","6a257f5122a888df928ab6e2","","A boy is sipping off a spoon.","","flickr30_image_3151.jpg","7"
"","","","","","html-button-response","50","2746978","0.0-4.0-0.46","4","6a257f5122a888df928ab6e2","","A group of people are outside at a body of water. Some are standing on a rock, some are laying on the rock, one is jumping in the water, two are in the water and three are fishing on another rock.","","flickr30_image_3111.jpg","41"
"","","","","","html-button-response","51","2789199","0.0-4.0-0.47","4","6a257f5122a888df928ab6e2","","A man and a woman are outside dancing for an audience. ","","flickr30_image_3623.jpg","11"
"","","","","","html-button-response","52","2837843","0.0-4.0-0.48","4","6a257f5122a888df928ab6e2","","A person is standing in front of a table filled with trinkets, books and hats.","","flickr30_image_3137.jpg","15"
"","","","","","html-button-response","53","2862196","0.0-4.0-0.49","4","6a257f5122a888df928ab6e2","","A child is outside standing behind a tree.","","flickr30_image_3458.jpg","8"
"","","","","","html-button-response","54","2941159","0.0-4.0-0.50","4","6a257f5122a888df928ab6e2","","A group of people and two security men in helmets are standing outside around a bunch of trash.","","flickr30_image_2906.jpg","18"
"","","","","","html-button-response","55","2976032","0.0-4.0-0.51","4","6a257f5122a888df928ab6e2","","Two man are outside sitting on tracks that are being assembled.","","flickr30_image_3022.jpg","11"
"","","","","","html-button-response","56","3009254","0.0-4.0-0.52","4","6a257f5122a888df928ab6e2","","A person is sitting outside selling produce.","","flickr30_image_2912.jpg","7"
"","","","","","html-button-response","57","3035885","0.0-4.0-0.53","4","6a257f5122a888df928ab6e2","","A boy is outside being chased by a dog.","","flickr30_image_3798.jpg","9"
"","","","","","html-button-response","58","3092729","0.0-4.0-0.54","4","6a257f5122a888df928ab6e2","","A little boy is running outside while pushing another little boy in a small push wagon. ","","flickr30_image_3554.jpg","16"
"","","","","","html-button-response","59","3132341","0.0-4.0-0.55","4","6a257f5122a888df928ab6e2","","Two people are sitting selling newspapers.","","flickr30_image_846.jpg","6"
"","","","","","html-button-response","60","3154383","0.0-4.0-0.56","4","6a257f5122a888df928ab6e2","","A woman is posing with a gigantic dead fish.","","flickr30_image_3108.jpg","9"
"","","","","","html-button-response","61","3177133","0.0-4.0-0.57","4","6a257f5122a888df928ab6e2","","A woman is outside selling potatoes.","","flickr30_image_2861.jpg","6"
"","","","","","html-button-response","62","3189602","0.0-4.0-0.58","4","6a257f5122a888df928ab6e2","","A man is tying a net.","","flickr30_image_3861.jpg","6"
"","","","","","html-button-response","63","3210324","0.0-4.0-0.59","4","6a257f5122a888df928ab6e2","","Two men are outside working with wood.","","flickr30_image_3205.jpg","7"
"","","","","","html-button-response","64","3231427","0.0-4.0-0.60","4","6a257f5122a888df928ab6e2","","A woman is in a car looking out the window at a cat.","","flickr30_image_77.jpg","13"
"","","","","","html-button-response","65","3263449","0.0-4.0-0.61","4","6a257f5122a888df928ab6e2","","A boy is standing in an abandoned school room.","","flickr30_image_3855.jpg","9"
"","","","","","html-button-response","66","3289195","0.0-4.0-0.62","4","6a257f5122a888df928ab6e2","","Two kids are giving peace signs.","","flickr30_image_3817.jpg","6"
"","","","","","html-button-response","67","3308419","0.0-4.0-0.63","4","6a257f5122a888df928ab6e2","","A boy is asleep on the subway.","","flickr30_image_3300.jpg","7"
"","","","","","html-button-response","68","3322596","0.0-4.0-0.64","4","6a257f5122a888df928ab6e2","","A woman is holding a baby goat.","","flickr30_image_3099.jpg","7"
"","","","","","html-button-response","69","3338897","0.0-4.0-0.65","4","6a257f5122a888df928ab6e2","","A man is blowing bubbles.","","flickr30_image_3853.jpg","5"
"","","","","","html-button-response","70","3360385","0.0-4.0-0.66","4","6a257f5122a888df928ab6e2","","Two women are outside selling produce.","","flickr30_image_2876.jpg","6"
"","","","","","html-button-response","71","3385272","0.0-4.0-0.67","4","6a257f5122a888df928ab6e2","","Three people are in a bathroom washing their hands.","","flickr30_image_3261.jpg","9"
"","","","","","html-button-response","72","3421922","0.0-4.0-0.68","4","6a257f5122a888df928ab6e2","","A man is outside selling chickens.","","flickr30_image_521.jpg","6"
"","","","","","html-button-response","73","3459316","0.0-4.0-0.69","4","6a257f5122a888df928ab6e2","","A group of kids wearing matching shirts are posing for a picture.","","flickr30_image_2899.jpg","12"
"","","","","","html-button-response","74","3481344","0.0-4.0-0.70","4","6a257f5122a888df928ab6e2","","A man is inside sitting on a couch smiling.","","flickr30_image_2938.jpg","9"
"","","","","","html-button-response","75","3500154","0.0-4.0-0.71","4","6a257f5122a888df928ab6e2","","Two people are in a field working.","","flickr30_image_995.jpg","7"
"","","","","","html-button-response","76","3531825","0.0-4.0-0.72","4","6a257f5122a888df928ab6e2","","A man is at the beach building a sand castle","","flickr30_image_3427.jpg","10"
"","","","","","html-button-response","77","3547098","0.0-4.0-0.73","4","6a257f5122a888df928ab6e2","","Two people are outside sleeping.","","flickr30_image_3370.jpg","5"
"","","","","","html-button-response","78","3573281","0.0-4.0-0.74","4","6a257f5122a888df928ab6e2","","A cat is playing with a white piece of string.","","flickr30_image_3233.jpg","10"
"","","","","","html-button-response","79","3588103","0.0-4.0-0.75","4","6a257f5122a888df928ab6e2","","A man and woman are outside talking.","","flickr30_image_3753.jpg","7"
"","","","","","html-button-response","80","3627809","0.0-4.0-0.76","4","6a257f5122a888df928ab6e2","","A family is at a restaurant eating.","","flickr30_image_565.jpg","7"
"","","","","","html-button-response","81","3653450","0.0-4.0-0.77","4","6a257f5122a888df928ab6e2","","A man is outside posing with a water truck.","","flickr30_image_619.jpg","9"
"","","","","","html-button-response","82","3673466","0.0-4.0-0.78","4","6a257f5122a888df928ab6e2","","Men are outside selling produce.","","flickr30_image_975.jpg","5"
"","","","","","html-button-response","83","3702241","0.0-4.0-0.79","4","6a257f5122a888df928ab6e2","","A man is doing construction on a roof.","","flickr30_image_3485.jpg","8"
"","","","","","html-button-response","84","3719107","0.0-4.0-0.80","4","6a257f5122a888df928ab6e2","","A woman is outside carrying two pales of water.","","flickr30_image_3826.jpg","9"
"","","","","","html-button-response","85","3752508","0.0-4.0-0.81","4","6a257f5122a888df928ab6e2","","A boy is being photographed doing a skateboarding trick.","","flickr30_image_3340.jpg","9"
"","","","","","html-button-response","86","3782967","0.0-4.0-0.82","4","6a257f5122a888df928ab6e2","","A man is carrying green vegetables.","","flickr30_image_3085.jpg","6"
"","","","","","html-button-response","87","3827552","0.0-4.0-0.83","4","6a257f5122a888df928ab6e2","","Men working construction are outside digging.","","flickr30_image_3088.jpg","6"
"","","","","","html-button-response","88","3855874","0.0-4.0-0.84","4","6a257f5122a888df928ab6e2","","A man is lounging outside on the ground reading a book.","","flickr30_image_3591.jpg","11"
"","","","","","html-button-response","89","3876746","0.0-4.0-0.85","4","6a257f5122a888df928ab6e2","","A child is on a mat sleeping.","","flickr30_image_350.jpg","7"
"","","","","","html-button-response","90","3963322","0.0-4.0-0.86","4","6a257f5122a888df928ab6e2","","Four large containers of puffed food are outside.","","flickr30_image_591.jpg","8"
"","","","","","html-button-response","91","4012728","0.0-4.0-0.87","4","6a257f5122a888df928ab6e2","","Two kids are outside in a body of water watching the sun rise or set.","","flickr30_image_3016.jpg","15"
"","","","","","html-button-response","92","4034493","0.0-4.0-0.88","4","6a257f5122a888df928ab6e2","","Two people are outside looking at each other.","","flickr30_image_309.jpg","8"
"","","","","","html-button-response","93","4059539","0.0-4.0-0.89","4","6a257f5122a888df928ab6e2","","A little girl and a woman are out on the streets.","","flickr30_image_3240.jpg","11"
"","","","","","html-button-response","94","4099340","0.0-4.0-0.90","4","6a257f5122a888df928ab6e2","","Two people are working outside in a field.","","flickr30_image_3385.jpg","8"
"","","","","","html-button-response","95","4127730","0.0-4.0-0.91","4","6a257f5122a888df928ab6e2","","A man is heating up a pan while a kid watches.","","flickr30_image_3147.jpg","11"
"","","","","","html-button-response","96","4153712","0.0-4.0-0.92","4","6a257f5122a888df928ab6e2","","A kid is sleeping in a cart at the grocery store.","","flickr30_image_3490.jpg","11"
"","","","","","html-button-response","97","4195868","0.0-4.0-0.93","4","6a257f5122a888df928ab6e2","","A science teacher is in the front of the class teaching.","","flickr30_image_858.jpg","11"
"","","","","","html-button-response","98","4224842","0.0-4.0-0.94","4","6a257f5122a888df928ab6e2","","A group of people are outside riding horses.","","flickr30_image_3103.jpg","8"
"","","","","","html-button-response","99","4251546","0.0-4.0-0.95","4","6a257f5122a888df928ab6e2","","A woman is outside pushing a child in a stroller.","","flickr30_image_3827.jpg","10"
"","","","","","html-button-response","100","4269299","0.0-4.0-0.96","4","6a257f5122a888df928ab6e2","","A man is drinking out of a clay cup.","","flickr30_image_3053.jpg","9"
"","","","","","html-button-response","101","4307517","0.0-4.0-0.97","4","6a257f5122a888df928ab6e2","","A group of men and three children are standing up and posing as if they are tired.","","flickr30_image_3216.jpg","17"
"","","","","","html-button-response","102","4333740","0.0-4.0-0.98","4","6a257f5122a888df928ab6e2","","A boy is standing outside on a bridge","","flickr30_image_867.jpg","8"
"","","","","","html-button-response","103","4354697","0.0-4.0-0.99","4","6a257f5122a888df928ab6e2","","A woman is outside pushing a cart of produce.","","flickr30_image_3532.jpg","9"
"","","","","","html-button-response","104","4377887","0.0-4.0-0.100","4","6a257f5122a888df928ab6e2","","A man is outside smiling for a picture with a hat on.","","flickr30_image_2960.jpg","12"
"","","","","","html-button-response","105","4405792","0.0-4.0-0.101","4","6a257f5122a888df928ab6e2","","Two women are brushing water off the streets.","","flickr30_image_334.jpg","8"
"","","","","","html-button-response","106","4421112","0.0-4.0-0.102","4","6a257f5122a888df928ab6e2","","A person is outside riding a horse.","","flickr30_image_353.jpg","7"
"","","","","","html-button-response","107","4456141","0.0-4.0-0.103","4","6a257f5122a888df928ab6e2","","Kids are inside folding long green leaves.","","flickr30_image_3792.jpg","7"
"","","","","","html-button-response","108","4472686","0.0-4.0-0.104","4","6a257f5122a888df928ab6e2","","A man is still outside and thinking.","","flickr30_image_938.jpg","7"
"","","","","","html-button-response","109","4486604","0.0-4.0-0.105","4","6a257f5122a888df928ab6e2","","A boy is pushing a girl on a swing.","","flickr30_image_3483.jpg","9"
"","","","","","html-button-response","110","4504820","0.0-4.0-0.106","4","6a257f5122a888df928ab6e2","","A little boy is looking at a toy train set.","","flickr30_image_460.jpg","10"
"","","","","","html-button-response","111","4528231","0.0-4.0-0.107","4","6a257f5122a888df928ab6e2","","Two little girls are outside laying in sleeping bags.","","flickr30_image_3498.jpg","9"
"","","","","","html-button-response","112","4560471","0.0-4.0-0.108","4","6a257f5122a888df928ab6e2","","A man is sitting on the beach shucking coconuts. ","","flickr30_image_3605.jpg","9"
"","","","","","html-button-response","113","4585369","0.0-4.0-0.109","4","6a257f5122a888df928ab6e2","","A woman is standing in the streets on the phone.","","flickr30_image_3101.jpg","10"
"","","","","","html-button-response","114","4617893","0.0-4.0-0.110","4","6a257f5122a888df928ab6e2","","A man is outside in a skirt holding a instrument.","","flickr30_image_2901.jpg","10"
"","","","","","html-button-response","115","4648407","0.0-4.0-0.111","4","6a257f5122a888df928ab6e2","","A woman is outside on a mobile scooter.","","flickr30_image_3495.jpg","8"
"","","","","","html-button-response","116","4665517","0.0-4.0-0.112","4","6a257f5122a888df928ab6e2","","A man is on the subway reading a book.","","flickr30_image_3294.jpg","9"
"","","","","","html-button-response","117","4687728","0.0-4.0-0.113","4","6a257f5122a888df928ab6e2","","Two kids are outside hugging each other","","flickr30_image_924.jpg","7"
"","","","","","html-button-response","118","4706574","0.0-4.0-0.114","4","6a257f5122a888df928ab6e2","","A girl is selling fabric.","","flickr30_image_582.jpg","5"
"","","","","","html-button-response","119","4723239","0.0-4.0-0.115","4","6a257f5122a888df928ab6e2","","A group of people are sitting at a table.","","flickr30_image_3615.jpg","9"
"","","","","","html-button-response","120","4743759","0.0-4.0-0.116","4","6a257f5122a888df928ab6e2","","Two men are in a penske truck.","","flickr30_image_3076.jpg","7"
"","","","","","html-button-response","121","4785096","0.0-4.0-0.117","4","6a257f5122a888df928ab6e2","","One man is carving ice the other man is mopping up the ice.","","flickr30_image_3432.jpg","13"
"","","","","","html-button-response","122","4808612","0.0-4.0-0.118","4","6a257f5122a888df928ab6e2","","A woman is weaving fabric.","","flickr30_image_3361.jpg","5"
"","","","","","html-button-response","123","4830120","0.0-4.0-0.119","4","6a257f5122a888df928ab6e2","","A woman is selling something outside.","","flickr30_image_3452.jpg","6"
"","","","","","html-button-response","124","4869613","0.0-4.0-0.120","4","6a257f5122a888df928ab6e2","","A woman is outside talking to a bunch of kids.","","flickr30_image_3074.jpg","10"
"","","","","","html-button-response","125","4890628","0.0-4.0-0.121","4","6a257f5122a888df928ab6e2","","A child is practicing t-ball outside.","","flickr30_image_741.jpg","6"
